Folder: DxTools/Examples (part 2)

File: Temperature.uxd
;content of D:\DATA\V_Thery\manip four\TiO2(001)\C5-100nm\parall faisc\TiO2(001)-40-100.raw - (Diffrac Plus V4 file)
_FILEVERSION = 3
_SAMPLE
_+SAMPLE
_USER = Lab Manager
_GONIOMETER_CODE = 20
_STAGE_CODE = 4
; Goniometer : D8 theta/2theta, stage : Open eulerian craddle
_SAMPLE_CHANGER_CODE = 0
_ATTACHMENTS_CODE = 0
_GONIOMETER_RADIUS = 390
_FIXED_DETSLIT = 0
_MONOCHROMATOR = 0
; Incident beam monochromator : None
_BETA_FILTER = N
_ANALYZER_CODE = 0
; Received beam analyzer : None
_DATEMEASURED = 10-Feb-2016 17:25:12
_RUNTIME = 45.15763
_WL_UNIT = A
_WL1 = 1.5406
_WL2 = 1.54439
_WL3 = 1.39222
_WLRATIO = 0.5
_ANODE = Cu
_V4_INF_USER = Lab Manager
_V4_INF_CREATOR = V5Converter
_V4_INF_CREATOR_VERSION = 3.3.50.0

; Data for range 1
_DRIVE = COUPLED
_STEPTIME = 19.2
_STEPSIZE = 0.01
_STEPMODE = C
_START = 61.5
_THETA = 30.75
_2THETA = 61.5
_KHI = -0.169602
_PHI = 0.000039
_X = 0.917012
_Y = -0.570996
_Z = 1.479004
_DETECTORSLIT = out
_AUX1 = 0
_AUX2 = -2.4
_DELAY = 120
_TIMESTARTED = 0
_KV = 40
_MA = 40
_RANGE_WL = 1.5406
_3DPLANE = 0
_V4_PSD2THETA = 9999
_V4_PSDCHANNEL1 = 0
_V4_PSDAPERTURE = 2.057142
_V4_PSDTYPE = 5
_V4_PSDFIXED = 0
_V4_TEMPCONTROL = 0
_V4_TEMPSTAGE = 0
_V4_TEMPSENSOR = 0
_V4_TEMPERATURE = 313.6949
_V4_TEMPRATE = 0
_V4_TEMPDELAY = 0
_V4_TEMPRAMPFLAG = 0
_V4_COUNTERS_MASK = 1
_V4_DRIVES_MASK = 0
_V4_ENCODERS_MASK = 0
_2THETACOUNTS = 1
; 2THETA	Cnt2_D1
61.5	7.000000
61.52	10
61.54	11
61.56	11
61.58	11
61.6	9.000000
61.62	12
61.64	10
61.66	13
61.68	8.000000
61.7	11
61.72	8.000000
61.74	12
61.76	9.000000
61.78	16
61.8	19
61.82	21
61.84	10
61.86	22
61.88	14
61.9	30
61.92	24
61.94	24
61.96	39
61.98	34
62	33
62.02	26
62.04	29
62.06	35
62.08	41
62.1	50
62.12	54
62.14	49
62.16	41
62.18	50
62.2	58
62.22	68
62.24	71
62.26	78
62.28	92
62.3	95
62.32	100
62.34	117
62.36	122
62.38	168
62.4	163
62.42	173
62.44	233
62.46	248
62.48	281
62.5	321
62.52	411
62.54	520
62.56	676
62.58	861
62.6	1066
62.62	1499
62.64	2164
62.66	3573
62.68	6847
62.7	20762
62.72	104869
62.74	207007
62.76	116891
62.78	26277
62.8	7052
62.82	3226
62.84	2006
62.86	1384
62.88	1058
62.9	891
62.92	604
62.94	428
62.96	328
62.98	298
63	218
63.02	205
63.04	166
63.06	153
63.08	144
63.1	109
63.12	112
63.14	108
63.16	100
63.18	94
63.2	68
63.22	75
63.24	67
63.26	52
63.28	62
63.3	62
63.32	58
63.34	50
63.36	40
63.38	28
63.4	36
63.42	43
63.44	33
63.46	29
63.48	38
63.5	37
63.52	34
63.54	23
63.56	27
63.58	14
63.6	21
63.62	25
63.64	24
63.66	22
63.68	24
63.7	19
63.72	21
63.74	10
63.76	16
63.78	19
63.8	20
63.82	12
63.84	20
63.86	13
63.88	18
63.9	17
63.92	20
63.94	14
63.96	18
63.98	12
64	26
64.02	17
64.04	13
64.06	15
64.08	23
64.1	34
64.12	12
64.14	18
64.16	22
64.18	20
64.2	25
64.22	14
64.24	17
64.26	28
64.28	36
64.3	27
64.32	27
64.34	31
64.36	27
64.38	30
64.4	51
64.42	25
64.44	39
64.46	39
64.48	48
64.5	60
64.52	66
64.54	72
64.56	82
64.58	115
64.6	141
64.62	141
64.64	180
64.66	221
64.68	281
64.7	354
64.72	353
64.74	426
64.76	504
64.78	614
64.8	678
64.82	834
64.84	1006
64.86	1194
64.88	1356
64.9	1554
64.92	1750
64.94	1828
64.96	1824
64.98	1743
65	1565
65.02	1313
65.04	1056
65.06	833
65.08	698
65.1	462
65.12	403
65.14	320
65.16	250
65.18	169
65.2	144
65.22	135
65.24	91
65.26	79
65.28	66
65.3	78
65.32	50
65.34	46
65.36	41
65.38	27
65.4	30
65.42	27
65.44	24
65.46	23
65.48	20
65.5	28
65.52	21
65.54	17
65.56	18
65.58	21
65.6	8.000000
65.62	14
65.64	17
65.66	16
65.68	16
65.7	37
65.72	19
65.74	54
65.76	57
65.78	121
65.8	148
65.82	183
65.84	279
65.86	277
65.88	321
65.9	286
65.92	175
65.94	107
65.96	51
65.98	21
66	15
66.02	16
66.04	12
66.06	7.000000
66.08	1.000000
66.1	9.000000
66.12	8.000000
66.14	11
66.16	14
66.18	7.000000
66.2	4.000000
66.22	2.000000
66.24	4.000000
66.26	9.000000
66.28	9.000000
66.3	4.000000
66.32	8.000000
66.34	5.000000
66.36	4.000000
66.38	7.000000
66.4	5.000000
66.42	11
66.44	3.000000
66.46	7.000000
66.48	6.000000
66.5	2.000000

; Data for range 2
_DRIVE = COUPLED
_STEPTIME = 19.2
_STEPSIZE = 0.01
_STEPMODE = C
_START = 61.5
_THETA = 30.75
_2THETA = 61.5
_KHI = -0.169602
_PHI = 0.000039
_X = 0.917012
_Y = -0.570996
_Z = 1.479004
_DETECTORSLIT = out
_AUX1 = 0
_AUX2 = -2.4
_DELAY = 120
_TIMESTARTED = 206.8644
_KV = 40
_MA = 40
_RANGE_WL = 1.5406
_3DPLANE = 0
_V4_PSD2THETA = 9999
_V4_PSDCHANNEL1 = 0
_V4_PSDAPERTURE = 2.057142
_V4_PSDTYPE = 5
_V4_PSDFIXED = 0
_V4_TEMPCONTROL = 0
_V4_TEMPSTAGE = 0
_V4_TEMPSENSOR = 0
_V4_TEMPERATURE = 318.5273
_V4_TEMPRATE = 0
_V4_TEMPDELAY = 0
_V4_TEMPRAMPFLAG = 0
_V4_COUNTERS_MASK = 1
_V4_DRIVES_MASK = 0
_V4_ENCODERS_MASK = 0
_2THETACOUNTS = 1
; 2THETA	Cnt2_D1
61.5	8.000000
61.52	9.000000
61.54	12
61.56	7.000000
61.58	12
61.6	12
61.62	9.000000
61.64	13
61.66	13
61.68	11
61.7	14
61.72	14
61.74	19
61.76	16
61.78	18
61.8	10
61.82	19
61.84	18
61.86	19
61.88	24
61.9	23
61.92	27
61.94	31
61.96	36
61.98	29
62	35
62.02	42
62.04	39
62.06	30
62.08	30
62.1	28
62.12	47
62.14	48
62.16	48
62.18	61
62.2	64
62.22	63
62.24	78
62.26	62
62.28	89
62.3	104
62.32	112
62.34	103
62.36	149
62.38	158
62.4	165
62.42	184
62.44	227
62.46	258
62.48	320
62.5	371
62.52	421
62.54	559
62.56	644
62.58	904
62.6	1128
62.62	1561
62.64	2366
62.66	3865
62.68	7528
62.7	24234
62.72	123260
62.74	205710
62.76	100688
62.78	21357
62.8	6186
62.82	3089
62.84	1911
62.86	1311
62.88	1047
62.9	881
62.92	560
62.94	424
62.96	346
62.98	299
63	222
63.02	210
63.04	167
63.06	166
63.08	132
63.1	130
63.12	89
63.14	87
63.16	98
63.18	89
63.2	64
63.22	75
63.24	62
63.26	53
63.28	65
63.3	53
63.32	50
63.34	42
63.36	47
63.38	42
63.4	30
63.42	30
63.44	26
63.46	27
63.48	35
63.5	22
63.52	34
63.54	28
63.56	29
63.58	19
63.6	21
63.62	24
63.64	29
63.66	23
63.68	19
63.7	27
63.72	24
63.74	16
63.76	23
63.78	18
63.8	18
63.82	13
63.84	18
63.86	18
63.88	18
63.9	24
63.92	19
63.94	18
63.96	17
63.98	21
64	14
64.02	18
64.04	21
64.06	18
64.08	20
64.1	20
64.12	17
64.14	20
64.16	23
64.18	23
64.2	21
64.22	32
64.24	27
64.26	19
64.28	22
64.3	29
64.32	27
64.34	28
64.36	29
64.38	28
64.4	35
64.42	34
64.44	48
64.46	51
64.48	55
64.5	62
64.52	56
64.54	77
64.56	89
64.58	128
64.6	127
64.62	145
64.64	213
64.66	222
64.68	291
64.7	328
64.72	398
64.74	480
64.76	516
64.78	574
64.8	700
64.82	826
64.84	1007
64.86	1233
64.88	1350
64.9	1600
64.92	1741
64.94	1883
64.96	1722
64.98	1706
65	1531
65.02	1219
65.04	1056
65.06	781
65.08	641
65.1	473
65.12	365
65.14	299
65.16	229
65.18	198
65.2	168
65.22	118
65.24	119
65.26	67
65.28	69
65.3	57
65.32	52
65.34	55
65.36	44
65.38	38
65.4	26
65.42	28
65.44	22
65.46	25
65.48	11
65.5	24
65.52	21
65.54	10
65.56	16
65.58	18
65.6	26
65.62	17
65.64	15
65.66	15
65.68	20
65.7	22
65.72	20
65.74	43
65.76	75
65.78	92
65.8	141
65.82	198
65.84	237
65.86	290
65.88	334
65.9	266
65.92	230
65.94	106
65.96	44
65.98	34
66	16
66.02	10
66.04	11
66.06	11
66.08	13
66.1	8.000000
66.12	11
66.14	3.000000
66.16	5.000000
66.18	7.000000
66.2	6.000000
66.22	4.000000
66.24	7.000000
66.26	6.000000
66.28	8.000000
66.3	6.000000
66.32	9.000000
66.34	8.000000
66.36	6.000000
66.38	3.000000
66.4	14
66.42	5.000000
66.44	11
66.46	7.000000
66.48	7.000000
66.5	8.000000

; Data for range 3
_DRIVE = COUPLED
_STEPTIME = 19.2
_STEPSIZE = 0.01
_STEPMODE = C
_START = 61.5
_THETA = 30.75
_2THETA = 61.5
_KHI = -0.169602
_PHI = 0.000039
_X = 0.917012
_Y = -0.570996
_Z = 1.479004
_DETECTORSLIT = out
_AUX1 = 0
_AUX2 = -2.4
_DELAY = 120
_TIMESTARTED = 414.1419
_KV = 40
_MA = 40
_RANGE_WL = 1.5406
_3DPLANE = 0
[...]
65.44	401
65.46	336
65.48	260
65.5	228
65.52	148
65.54	157
65.56	121
65.58	89
65.6	89
65.62	77
65.64	55
65.66	71
65.68	57
65.7	48
65.72	62
65.74	76
65.76	100
65.78	163
65.8	206
65.82	241
65.84	291
65.86	315
65.88	310
65.9	259
65.92	167
65.94	72
65.96	48
65.98	21
66	24
66.02	13
66.04	17
66.06	10
66.08	11
66.1	6.000000
66.12	15
66.14	17
66.16	13
66.18	11
66.2	5.000000
66.22	4.000000
66.24	6.000000
66.26	6.000000
66.28	8.000000
66.3	6.000000
66.32	12
66.34	6.000000
66.36	12
66.38	11
66.4	6.000000
66.42	4.000000
66.44	12
66.46	6.000000
66.48	6.000000
66.5	11

; Data for range 22
_DRIVE = COUPLED
_STEPTIME = 19.2
_STEPSIZE = 0.01
_STEPMODE = C
_START = 61.5
_THETA = 30.75
_2THETA = 61.5
_KHI = -0.169602
_PHI = 0.000039
_X = 0.917012
_Y = -0.570996
_Z = 1.479004
_DETECTORSLIT = out
_AUX1 = 0
_AUX2 = -2.4
_DELAY = 120
_TIMESTARTED = 4306.864
_KV = 40
_MA = 40
_RANGE_WL = 1.5406
_3DPLANE = 0
_V4_PSD2THETA = 9999
_V4_PSDCHANNEL1 = 0
_V4_PSDAPERTURE = 2.057142
_V4_PSDTYPE = 5
_V4_PSDFIXED = 0
_V4_TEMPCONTROL = 0
_V4_TEMPSTAGE = 0
_V4_TEMPSENSOR = 0
_V4_TEMPERATURE = 373.15
_V4_TEMPRATE = 0
_V4_TEMPDELAY = 0
_V4_TEMPRAMPFLAG = 0
_V4_COUNTERS_MASK = 1
_V4_DRIVES_MASK = 0
_V4_ENCODERS_MASK = 0
_2THETACOUNTS = 1
; 2THETA	Cnt2_D1
61.5	8.000000
61.52	10
61.54	11
61.56	7.000000
61.58	10
61.6	15
61.62	14
61.64	8.000000
61.66	13
61.68	12
61.7	15
61.72	17
61.74	20
61.76	12
61.78	17
61.8	26
61.82	14
61.84	14
61.86	16
61.88	30
61.9	29
61.92	27
61.94	31
61.96	25
61.98	33
62	62
62.02	41
62.04	41
62.06	49
62.08	48
62.1	61
62.12	57
62.14	66
62.16	60
62.18	73
62.2	69
62.22	84
62.24	85
62.26	89
62.28	103
62.3	131
62.32	135
62.34	136
62.36	146
62.38	176
62.4	209
62.42	231
62.44	284
62.46	356
62.48	465
62.5	495
62.52	642
62.54	834
62.56	1003
62.58	1395
62.6	2065
62.62	3040
62.64	5688
62.66	16599
62.68	85590
62.7	202481
62.72	130945
62.74	30573
62.76	7365
62.78	3460
62.8	1938
62.82	1374
62.84	1074
62.86	883
62.88	610
62.9	461
62.92	351
62.94	276
62.96	236
62.98	209
63	177
63.02	145
63.04	134
63.06	138
63.08	122
63.1	94
63.12	97
63.14	92
63.16	72
63.18	89
63.2	70
63.22	65
63.24	59
63.26	42
63.28	54
63.3	52
63.32	34
63.34	42
63.36	29
63.38	36
63.4	39
63.42	22
63.44	35
63.46	27
63.48	29
63.5	24
63.52	30
63.54	28
63.56	31
63.58	18
63.6	22
63.62	27
63.64	19
63.66	22
63.68	26
63.7	15
63.72	18
63.74	8.000000
63.76	20
63.78	17
63.8	16
63.82	21
63.84	22
63.86	18
63.88	8.000000
63.9	20
63.92	14
63.94	19
63.96	19
63.98	20
64	19
64.02	16
64.04	19
64.06	17
64.08	12
64.1	11
64.12	18
64.14	26
64.16	16
64.18	9.000000
64.2	21
64.22	24
64.24	18
64.26	12
64.28	12
64.3	18
64.32	18
64.34	17
64.36	21
64.38	16
64.4	17
64.42	16
64.44	18
64.46	15
64.48	17
64.5	17
64.52	22
64.54	20
64.56	21
64.58	16
64.6	22
64.62	24
64.64	23
64.66	27
64.68	26
64.7	28
64.72	30
64.74	43
64.76	29
64.78	40
64.8	44
64.82	34
64.84	53
64.86	54
64.88	61
64.9	74
64.92	76
64.94	78
64.96	88
64.98	119
65	152
65.02	185
65.04	209
65.06	284
65.08	369
65.1	443
65.12	578
65.14	723
65.16	971
65.18	1270
65.2	1764
65.22	2192
65.24	2664
65.26	3057
65.28	2948
65.3	2833
65.32	2455
65.34	1829
65.36	1257
65.38	877
65.4	604
65.42	467
65.44	374
65.46	268
65.48	234
65.5	191
65.52	140
65.54	114
65.56	101
65.58	76
65.6	71
65.62	58
65.64	69
65.66	54
65.68	60
65.7	53
65.72	82
65.74	88
65.76	120
65.78	158
65.8	192
65.82	237
65.84	294
65.86	334
65.88	325
65.9	225
65.92	144
65.94	71
65.96	37
65.98	13
66	19
66.02	24
66.04	8.000000
66.06	14
66.08	8.000000
66.1	12
66.12	12
66.14	15
66.16	14
66.18	7.000000
66.2	9.000000
66.22	8.000000
66.24	13
66.26	4.000000
66.28	14
66.3	13
66.32	7.000000
66.34	5.000000
66.36	6.000000
66.38	9.000000
66.4	9.000000
66.42	10
66.44	7.000000
66.46	12
66.48	9.000000
66.5	10

File: Yscan.uxd
;content of D:\DATA\V_Thery\VO2gradT\campagne2\100 nm\th2th392-419-001-01-1D-scanY-10-10 UP.raw - (Diffrac Plus V4 file)
_FILEVERSION = 3
_SAMPLE
_+SAMPLE
_USER = Lab Manager
_GONIOMETER_CODE = 20
_STAGE_CODE = 4
; Goniometer : D8 theta/2theta, stage : Open eulerian craddle
_SAMPLE_CHANGER_CODE = 0
_ATTACHMENTS_CODE = 0
_GONIOMETER_RADIUS = 390
_FIXED_DETSLIT = 0
_MONOCHROMATOR = 0
; Incident beam monochromator : None
_BETA_FILTER = N
_ANALYZER_CODE = 0
; Received beam analyzer : None
_DATEMEASURED = 07-Sep-2015 16:13:52
_RUNTIME = 44.81237
_WL_UNIT = A
_WL1 = 1.5406
_WL2 = 1.54439
_WL3 = 1.39222
_WLRATIO = 0.5
_ANODE = Cu
_V4_INF_USER = Lab Manager
_V4_INF_CREATOR = V5Converter
_V4_INF_CREATOR_VERSION = 3.3.50.0

; Data for range 1
_DRIVE = COUPLED
_STEPTIME = 19.2
_STEPSIZE = 0.01
_STEPMODE = C
_START = 39.2
_THETA = 19.6
_2THETA = 39.2
_KHI = -0.162797
_PHI = 0.000039
_X = -2.007
_Y = -11.076
_Z = -0.810996
_DETECTORSLIT = out
_AUX1 = 0
_AUX2 = -2.4
_TIMESTARTED = 0
_KV = 40
_MA = 40
_RANGE_WL = 1.5406
_3DPLANE = 0
_V4_PSD2THETA = 9999
_V4_PSDCHANNEL1 = 0
_V4_PSDAPERTURE = 2.057142
_V4_PSDTYPE = 5
_V4_PSDFIXED = 0
_V4_TEMPCONTROL = 0
_V4_TEMPSTAGE = 0
_V4_TEMPSENSOR = 0
_V4_TEMPERATURE = 273.15
_V4_TEMPRATE = 0
_V4_TEMPDELAY = 0
_V4_TEMPRAMPFLAG = 0
_V4_COUNTERS_MASK = 1
_V4_DRIVES_MASK = 0
_V4_ENCODERS_MASK = 0
_2THETACOUNTS = 1
; 2THETA	Cnt2_D1
39.2	16
39.21	17
39.22	14
39.23	10
39.24	12
39.25	10
39.26	16
39.27	9.000000
39.28	20
39.29	18
39.3	13
39.31	17
39.32	14
39.33	14
39.34	13
39.35	11
39.36	12
39.37	18
39.38	13
39.39	10
39.4	9.000000
39.41	14
39.42	13
39.43	9.000000
39.44	12
39.45	15
39.46	11
39.47	12
39.48	15
39.49	16
39.5	12
39.51	10
39.52	12
39.53	10
39.54	13
39.55	13
39.56	10
39.57	15
39.58	20
39.59	14
39.6	11
39.61	9.000000
39.62	12
39.63	17
39.64	10
39.65	14
39.66	18
39.67	12
39.68	16
39.69	10
39.7	15
39.71	13
39.72	9.000000
39.73	19
39.74	14
39.75	18
39.76	12
39.77	17
39.78	7.000000
39.79	14
39.8	9.000000
39.81	11
39.82	15
39.83	7.000000
39.84	11
39.85	12
39.86	16
39.87	14
39.88	10
39.89	12
39.9	12
39.91	14
39.92	17
39.93	17
39.94	8.000000
39.95	16
39.96	15
39.97	10
39.98	20
39.99	12
40	9.000000
40.01	13
40.02	20
40.03	5.000000
40.04	14
40.05	8.000000
40.06	12
40.07	16
40.08	16
40.09	12
40.1	12
40.11	12
40.12	13
40.13	15
40.14	10
40.15	8.000000
40.16	11
40.17	10
40.18	12
40.19	13
40.2	19
40.21	13
40.22	10
40.23	10
40.24	15
40.25	19
40.26	10
40.27	13
40.28	18
40.29	19
40.3	10
40.31	12
40.32	12
40.33	13
40.34	14
40.35	9.000000
40.36	10
40.37	16
40.38	15
40.39	11
40.4	8.000000
40.41	10
40.42	15
40.43	10
40.44	14
40.45	12
40.46	10
40.47	10
40.48	10
40.49	10
40.5	10
40.51	16
40.52	11
40.53	15
40.54	12
40.55	16
40.56	13
40.57	9.000000
40.58	14
40.59	13
40.6	8.000000
40.61	17
40.62	13
40.63	15
40.64	13
40.65	23
40.66	11
40.67	16
40.68	13
40.69	13
40.7	7.000000
40.71	6.000000
40.72	12
40.73	16
40.74	15
40.75	14
40.76	14
40.77	15
40.78	18
40.79	10
40.8	7.000000
40.81	12
40.82	13
40.83	11
40.84	17
40.85	8.000000
40.86	15
40.87	13
40.88	12
40.89	10
40.9	10
40.91	5.000000
40.92	9.000000
40.93	9.000000
40.94	8.000000
40.95	12
40.96	17
40.97	8.000000
40.98	17
40.99	10
41	15
41.01	14
41.02	10
41.03	8.000000
41.04	6.000000
41.05	13
41.06	18
41.07	16
41.08	6.000000
41.09	7.000000
41.1	12
41.11	14
41.12	15
41.13	12
41.14	13
41.15	17
41.16	17
41.17	7.000000
41.18	14
41.19	14
41.2	11
41.21	20
41.22	8.000000
41.23	14
41.24	15
41.25	11
41.26	17
41.27	12
41.28	14
41.29	15
41.3	16
41.31	10
41.32	17
41.33	11
41.34	11
41.35	17
41.36	21
41.37	15
41.38	10
41.39	16
41.4	15
41.41	16
41.42	17
41.43	23
41.44	14
41.45	21
41.46	25
41.47	22
41.48	21
41.49	15
41.5	13
41.51	19
41.52	12
41.53	16
41.54	15
41.55	18
41.56	11
41.57	22
41.58	24
41.59	37
41.6	120
41.61	464
41.62	1481
41.63	3173
41.64	3372
41.65	1373
41.66	183
41.67	54
41.68	37
41.69	28
41.7	33
41.71	23
41.72	18
41.73	17
41.74	24
41.75	19
41.76	14
41.77	15
41.78	11
41.79	14
41.8	6.000000
41.81	6.000000
41.82	11
41.83	19
41.84	9.000000
41.85	5.000000
41.86	16
41.87	11
41.88	10
41.89	17
41.9	10

; Data for range 2
_DRIVE = COUPLED
_STEPTIME = 19.2
_STEPSIZE = 0.01
_STEPMODE = C
_START = 39.2
_THETA = 19.6
_2THETA = 39.2
_KHI = -0.162797
_PHI = 0.000039
_X = -2.007
_Y = -10.826
_Z = -0.810996
_DETECTORSLIT = out
_AUX1 = 0
_AUX2 = -2.4
_TIMESTARTED = 58.0321
_KV = 40
_MA = 40
_RANGE_WL = 1.5406
_3DPLANE = 0
_V4_PSD2THETA = 9999
_V4_PSDCHANNEL1 = 0
_V4_PSDAPERTURE = 2.057142
_V4_PSDTYPE = 5
_V4_PSDFIXED = 0
_V4_TEMPCONTROL = 0
_V4_TEMPSTAGE = 0
_V4_TEMPSENSOR = 0
_V4_TEMPERATURE = 273.15
_V4_TEMPRATE = 0
_V4_TEMPDELAY = 0
_V4_TEMPRAMPFLAG = 0
_V4_COUNTERS_MASK = 1
_V4_DRIVES_MASK = 0
_V4_ENCODERS_MASK = 0
_2THETACOUNTS = 1
; 2THETA	Cnt2_D1
39.2	10
39.21	16
39.22	14
39.23	13
39.24	15
39.25	10
39.26	19
39.27	15
39.28	9.000000
39.29	18
39.3	10
39.31	17
39.32	10
39.33	11
39.34	15
39.35	13
39.36	18
39.37	15
39.38	12
39.39	16
39.4	14
39.41	13
39.42	13
39.43	17
39.44	10
39.45	10
39.46	15
39.47	22
39.48	20
39.49	21
39.5	17
39.51	15
39.52	13
39.53	13
39.54	14
39.55	19
39.56	7.000000
39.57	12
39.58	21
39.59	9.000000
39.6	13
39.61	16
39.62	12
39.63	18
39.64	14
39.65	17
39.66	10
39.67	13
39.68	24
39.69	14
39.7	17
39.71	12
39.72	21
39.73	20
39.74	10
39.75	15
39.76	9.000000
39.77	8.000000
39.78	20
39.79	18
39.8	16
39.81	14
39.82	10
39.83	21
39.84	9.000000
39.85	10
39.86	5.000000
39.87	11
39.88	15
39.89	13
39.9	13
39.91	20
39.92	22
39.93	13
39.94	17
39.95	17
39.96	8.000000
39.97	15
39.98	18
39.99	11
40	16
40.01	10
40.02	8.000000
40.03	12
40.04	8.000000
40.05	19
40.06	13
40.07	16
40.08	12
40.09	9.000000
40.1	13
40.11	8.000000
40.12	16
40.13	11
40.14	14
40.15	17
40.16	10
40.17	15
40.18	21
40.19	15
40.2	19
40.21	14
40.22	8.000000
40.23	19
40.24	15
40.25	15
40.26	19
40.27	12
40.28	13
40.29	10
40.3	6.000000
40.31	18
40.32	6.000000
40.33	17
40.34	9.000000
40.35	15
40.36	13
40.37	18
40.38	11
40.39	15
40.4	13
40.41	19
40.42	11
40.43	10
40.44	14
40.45	10
40.46	11
40.47	8.000000
40.48	15
40.49	16
40.5	16
40.51	19
40.52	10
40.53	12
40.54	13
40.55	15
40.56	14
40.57	10
40.58	11
40.59	14
40.6	19
40.61	8.000000
40.62	13
40.63	11
40.64	14
40.65	13
40.66	12
40.67	12
40.68	13
40.69	14
40.7	20
40.71	15
40.72	9.000000
40.73	21
40.74	15
40.75	11
40.76	11
40.77	13
40.78	19
40.79	15
40.8	14
40.81	13
40.82	11
40.83	15
40.84	9.000000
40.85	17
40.86	7.000000
40.87	11
40.88	24
40.89	8.000000
40.9	12
40.91	16
40.92	10
40.93	14
40.94	14
40.95	14
40.96	11
40.97	14
40.98	18
40.99	14
41	13
41.01	21
41.02	23
41.03	26
41.04	15
41.05	14
41.06	16
41.07	15
41.08	17
41.09	12
41.1	9.000000
41.11	16
41.12	18
41.13	19
41.14	17
41.15	19
41.16	16
41.17	12
41.18	14
41.19	18
41.2	14
41.21	16
41.22	18
41.23	12
41.24	16
41.25	12
41.26	17
41.27	12
41.28	14
41.29	21
41.3	19
41.31	6.000000
41.32	12
41.33	10
41.34	19
41.35	8.000000
41.36	15
41.37	15
41.38	16
41.39	18
41.4	17
41.41	17
41.42	22
41.43	19
41.44	17
41.45	21
41.46	18
41.47	22
41.48	27
41.49	16
41.5	22
41.51	24
41.52	30
41.53	20
41.54	14
41.55	23
41.56	30
41.57	42
41.58	51
41.59	60
41.6	90
41.61	222
41.62	786
41.63	4701
41.64	19283
41.65	36036
41.66	20654
41.67	2276
41.68	194
41.69	102
41.7	72
41.71	52
41.72	55
41.73	32
41.74	36
41.75	38
41.76	22
41.77	31
41.78	15
41.79	19
41.8	17
41.81	27
41.82	21
41.83	22
41.84	18
41.85	17
41.86	21
41.87	15
41.88	16
41.89	17
41.9	19

; Data for range 3
_DRIVE = COUPLED
_STEPTIME = 19.2
_STEPSIZE = 0.01
_STEPMODE = C
[...]
41.3	11
41.31	22
41.32	26
41.33	17
41.34	13
41.35	24
41.36	37
41.37	22
41.38	19
41.39	24
41.4	33
41.41	25
41.42	28
41.43	33
41.44	27
41.45	28
41.46	27
41.47	26
41.48	37
41.49	27
41.5	35
41.51	40
41.52	35
41.53	29
41.54	32
41.55	36
41.56	24
41.57	31
41.58	26
41.59	36
41.6	48
41.61	68
41.62	192
41.63	641
41.64	2337
41.65	6943
41.66	18961
41.67	44814
41.68	56763
41.69	47686
41.7	16932
41.71	2403
41.72	319
41.73	110
41.74	87
41.75	88
41.76	96
41.77	105
41.78	85
41.79	45
41.8	38
41.81	36
41.82	30
41.83	21
41.84	27
41.85	30
41.86	21
41.87	22
41.88	15
41.89	17
41.9	29

; Data for range 81
_DRIVE = COUPLED
_STEPTIME = 19.2
_STEPSIZE = 0.01
_STEPMODE = C
_START = 39.2
_THETA = 19.6
_2THETA = 39.2
_KHI = -0.162797
_PHI = 0.000039
_X = -2.007
_Y = 8.924
_Z = -0.810996
_DETECTORSLIT = out
_AUX1 = 0
_AUX2 = -2.4
_TIMESTARTED = 4719.198
_KV = 40
_MA = 40
_RANGE_WL = 1.5406
_3DPLANE = 0
_V4_PSD2THETA = 9999
_V4_PSDCHANNEL1 = 0
_V4_PSDAPERTURE = 2.057142
_V4_PSDTYPE = 5
_V4_PSDFIXED = 0
_V4_TEMPCONTROL = 0
_V4_TEMPSTAGE = 0
_V4_TEMPSENSOR = 0
_V4_TEMPERATURE = 273.15
_V4_TEMPRATE = 0
_V4_TEMPDELAY = 0
_V4_TEMPRAMPFLAG = 0
_V4_COUNTERS_MASK = 1
_V4_DRIVES_MASK = 0
_V4_ENCODERS_MASK = 0
_2THETACOUNTS = 1
; 2THETA	Cnt2_D1
39.2	15
39.21	20
39.22	26
39.23	14
39.24	15
39.25	14
39.26	24
39.27	17
39.28	22
39.29	23
39.3	20
39.31	18
39.32	16
39.33	21
39.34	22
39.35	16
39.36	17
39.37	24
39.38	19
39.39	14
39.4	17
39.41	24
39.42	23
39.43	26
39.44	19
39.45	21
39.46	22
39.47	20
39.48	20
39.49	19
39.5	13
39.51	12
39.52	13
39.53	18
39.54	14
39.55	19
39.56	20
39.57	26
39.58	20
39.59	24
39.6	16
39.61	23
39.62	16
39.63	23
39.64	21
39.65	14
39.66	19
39.67	24
39.68	34
39.69	26
39.7	15
39.71	20
39.72	27
39.73	18
39.74	19
39.75	23
39.76	35
39.77	26
39.78	21
39.79	29
39.8	20
39.81	29
39.82	26
39.83	16
39.84	23
39.85	26
39.86	21
39.87	19
39.88	30
39.89	29
39.9	36
39.91	18
39.92	35
39.93	34
39.94	27
39.95	18
39.96	22
39.97	44
39.98	25
39.99	42
40	26
40.01	33
40.02	32
40.03	32
40.04	23
40.05	38
40.06	31
40.07	25
40.08	29
40.09	31
40.1	22
40.11	29
40.12	32
40.13	28
40.14	20
40.15	28
40.16	21
40.17	24
40.18	35
40.19	19
40.2	22
40.21	21
40.22	21
40.23	16
40.24	16
40.25	17
40.26	21
40.27	19
40.28	27
40.29	22
40.3	16
40.31	18
40.32	25
40.33	9.000000
40.34	21
40.35	17
40.36	20
40.37	17
40.38	19
40.39	19
40.4	16
40.41	20
40.42	17
40.43	26
40.44	20
40.45	25
40.46	28
40.47	25
40.48	24
40.49	12
40.5	21
40.51	25
40.52	23
40.53	19
40.54	12
40.55	17
40.56	14
40.57	24
40.58	25
40.59	21
40.6	11
40.61	19
40.62	21
40.63	16
40.64	19
40.65	21
40.66	20
40.67	17
40.68	14
40.69	19
40.7	23
40.71	22
40.72	19
40.73	24
40.74	22
40.75	15
40.76	17
40.77	15
40.78	22
40.79	17
40.8	21
40.81	21
40.82	24
40.83	18
40.84	25
40.85	18
40.86	17
40.87	13
40.88	15
40.89	18
40.9	26
40.91	17
40.92	26
40.93	22
40.94	26
40.95	19
40.96	15
40.97	14
40.98	17
40.99	32
41	18
41.01	25
41.02	16
41.03	18
41.04	22
41.05	12
41.06	15
41.07	28
41.08	22
41.09	22
41.1	23
41.11	21
41.12	20
41.13	22
41.14	19
41.15	20
41.16	17
41.17	23
41.18	21
41.19	13
41.2	27
41.21	19
41.22	23
41.23	23
41.24	20
41.25	14
41.26	25
41.27	25
41.28	17
41.29	17
41.3	22
41.31	35
41.32	16
41.33	17
41.34	25
41.35	16
41.36	22
41.37	27
41.38	31
41.39	35
41.4	37
41.41	38
41.42	37
41.43	39
41.44	36
41.45	35
41.46	41
41.47	45
41.48	42
41.49	47
41.5	47
41.51	54
41.52	57
41.53	47
41.54	44
41.55	33
41.56	39
41.57	38
41.58	45
41.59	46
41.6	44
41.61	70
41.62	88
41.63	205
41.64	827
41.65	5146
41.66	22508
41.67	49829
41.68	60406
41.69	47228
41.7	16781
41.71	2647
41.72	329
41.73	149
41.74	96
41.75	101
41.76	106
41.77	101
41.78	83
41.79	58
41.8	37
41.81	28
41.82	16
41.83	26
41.84	30
41.85	30
41.86	25
41.87	17
41.88	18
41.89	22
41.9	16