Folder: DxTools/Examples

Note: README.md
# DxTools
Processing XRD data files recorded with the Bruker D8 diffractometer

## Supported file formats
For the moment, DxTools suppports Bruker's uxd and brml file formats.
## Features
DxTools automates data formating for most major laboratory XRD experiments:
- Reciprocal space maps: in the (Qx,Qz) plane recorded with the 1D Lynxeye detector,
or recorded with a series of 2theta/theta scans with varying offset;
in the (Qx,Qy) plane recorded with a series of rocking-curves/omega-scans at varying phi angles.

- Temperature experiments: any angular scan vs. temperature.

- X(Y) scan: any angular scan vs. a translation in X or Y.

- Sin^2 psi: recorded either in the conventional chi/psi-tilting geometry or using the variable_incidence (fixed-inclination) method.

- Pole figure: recorded with open detector while rotating chi and phi.

- Custom: any angular/translation scan looped over any other motor or temperature.

## Export options
Depending on the type of experiment, several data exporting options are available.
** No transformation is brought to the data. The raw data is rearranged in various formats.**

- individual scans: all scans are exported with the looping motor name appended to the file name.

- matrix: when the data is 2D, it can be exported in matrix form. First column/row represent the primary and secondary scanning axes.

- 3 columns: when the data is 2D it can also be present in a 3 column format with columns 1 and 2 being the primary and secondary scanning axes.

## Data analysis
When relevant, the peak position, width and area are plotted vs. the secondary scanning axis.
This can be done in 2 ways:
- simple numerical estimation from the data
- automatic fitting with pseudo-Voigt + linear-background function.

Note that is only relevant when there is only one single peak in the scanned area.

File: RSMap.uxd
;content of D:\DATA\ab2016\SiC-Si\2e14\002map.raw - (Diffrac Plus V4 file)
_FILEVERSION = 3
_SAMPLE
_+SAMPLE
_USER = Lab Manager
_GONIOMETER_CODE = 20
_STAGE_CODE = 4
; Goniometer : D8 theta/2theta, stage : Open eulerian craddle
_SAMPLE_CHANGER_CODE = 0
_ATTACHMENTS_CODE = 0
_GONIOMETER_RADIUS = 390
_FIXED_DETSLIT = 0
_MONOCHROMATOR = 0
; Incident beam monochromator : None
_BETA_FILTER = N
_ANALYZER_CODE = 0
; Received beam analyzer : None
_DATEMEASURED = 18-May-2016 11:46:53
_RUNTIME = 31.15342
_WL_UNIT = A
_WL1 = 1.5406
_WL2 = 1.54439
_WL3 = 1.39222
_WLRATIO = 0.5
_ANODE = Cu
_V4_INF_USER = Lab Manager
_V4_INF_CREATOR = V5Converter
_V4_INF_CREATOR_VERSION = 3.3.50.0

; Data for range 1
_DRIVE = PSDFIXED
_STEPTIME = 1
_STEPSIZE = 0.010714
_STEPMODE = S
_START = 39.9
_THETA = 18
_2THETA = 39.9
_KHI = -0.006
_PHI = 0.000039
_X = 0.784004
_Y = 1.103027
_Z = 0.710508
_DETECTORSLIT = out
_AUX1 = 0
_AUX2 = -2.34
_TIMESTARTED = 0
_KV = 40
_MA = 40
_RANGE_WL = 1.5406
_3DPLANE = 0
_V4_PSD2THETA = 9999
_V4_PSDCHANNEL1 = 0
_V4_PSDAPERTURE = 2.057142
_V4_PSDTYPE = 5
_V4_PSDFIXED = 1
_V4_TEMPCONTROL = 0
_V4_TEMPSTAGE = 0
_V4_TEMPSENSOR = 0
_V4_TEMPERATURE = 2221.15
_V4_TEMPRATE = 0
_V4_TEMPDELAY = 0
_V4_TEMPRAMPFLAG = 0
_V4_COUNTERS_MASK = 1
_V4_DRIVES_MASK = 0
_V4_ENCODERS_MASK = 0
_2THETACOUNTS = 1
; 2THETA	Cnt2_D1
39.9	1.000000
39.9107	2.000000
39.9214	0.000000
39.9321	0.000000
39.9429	2.000000
39.9536	2.000000
39.9643	0.000000
39.975	0.000000
39.9857	0.000000
39.9964	1.000000
40.0071	2.000000
40.0179	2.000000
40.0286	0.000000
40.0393	0.000000
40.05	0.000000
40.0607	0.000000
40.0714	1.000000
40.0821	1.000000
40.0929	0.000000
40.1036	0.000000
40.1143	0.000000
40.125	1.000000
40.1357	1.000000
40.1464	2.000000
40.1571	0.000000
40.1679	0.000000
40.1786	1.000000
40.1893	1.000000
40.2	1.000000
40.2107	0.000000
40.2214	0.000000
40.2321	0.000000
40.2429	2.000000
40.2536	3.000000
40.2643	2.000000
40.275	0.000000
40.2857	5.000000
40.2964	2.000000
40.3071	2.000000
40.3179	1.000000
40.3286	3.000000
40.3393	3.000000
40.35	0.000000
40.3607	1.000000
40.3714	2.000000
40.3821	1.000000
40.3929	1.000000
40.4036	2.000000
40.4143	1.000000
40.425	2.000000
40.4357	2.000000
40.4464	3.000000
40.4571	0.000000
40.4679	1.000000
40.4786	0.000000
40.4893	0.000000
40.5	3.000000
40.5107	0.000000
40.5214	1.000000
40.5321	0.000000
40.5429	2.000000
40.5536	0.000000
40.5643	1.000000
40.575	3.000000
40.5857	2.000000
40.5964	3.000000
40.6071	0.000000
40.6179	1.000000
40.6286	1.000000
40.6393	2.000000
40.65	2.000000
40.6607	0.000000
40.6714	2.000000
40.6821	0.000000
40.6929	2.000000
40.7036	0.000000
40.7143	0.000000
40.725	0.000000
40.7357	1.000000
40.7464	0.000000
40.7571	0.000000
40.7679	0.000000
40.7786	0.000000
40.7893	2.000000
40.8	2.000000
40.8107	1.000000
40.8214	0.000000
40.8321	0.000000
40.8429	1.000000
40.8536	0.000000
40.8643	1.000000
40.875	0.000000
40.8857	0.000000
40.8964	2.000000
40.9071	2.000000
40.9179	2.000000
40.9286	1.000000
40.9393	0.000000
40.95	2.000000
40.9607	3.000000
40.9714	3.000000
40.9821	2.000000
40.9929	0.000000
41.0036	1.000000
41.0143	2.000000
41.025	1.000000
41.0357	0.000000
41.0464	1.000000
41.0571	0.000000
41.0679	1.000000
41.0786	1.000000
41.0893	2.000000
41.1	2.000000
41.1107	0.000000
41.1214	1.000000
41.1321	1.000000
41.1429	1.000000
41.1536	0.000000
41.1643	1.000000
41.175	1.000000
41.1857	0.000000
41.1964	1.000000
41.2071	0.000000
41.2179	2.000000
41.2286	1.000000
41.2393	2.000000
41.25	1.000000
41.2607	2.000000
41.2714	1.000000
41.2821	0.000000
41.2929	0.000000
41.3036	1.000000
41.3143	1.000000
41.325	2.000000
41.3357	2.000000
41.3464	0.000000
41.3571	0.000000
41.3679	0.000000
41.3786	0.000000
41.3893	0.000000
41.4	0.000000
41.4107	2.000000
41.4214	0.000000
41.4321	0.000000
41.4429	1.000000
41.4536	1.000000
41.4643	0.000000
41.475	1.000000
41.4857	0.000000
41.4964	2.000000
41.5071	0.000000
41.5179	0.000000
41.5286	0.000000
41.5393	2.000000
41.55	1.000000
41.5607	0.000000
41.5714	0.000000
41.5821	1.000000
41.5929	0.000000
41.6036	1.000000
41.6143	1.000000
41.625	2.000000
41.6357	1.000000
41.6464	0.000000
41.6571	1.000000
41.6679	2.000000
41.6786	1.000000
41.6893	1.000000
41.7	0.000000
41.7107	3.000000
41.7214	2.000000
41.7321	0.000000
41.7429	1.000000
41.7536	0.000000
41.7643	1.000000
41.775	3.000000
41.7857	1.000000
41.7964	1.000000
41.8071	3.000000
41.8179	1.000000
41.8286	0.000000
41.8393	1.000000
41.85	1.000000
41.8607	1.000000
41.8714	1.000000
41.8821	1.000000
41.8929	0.000000
41.9036	0.000000
41.9143	1.000000
41.925	0.000000
41.9357	0.000000
41.9464	0.000000

; Data for range 2
_DRIVE = PSDFIXED
_STEPTIME = 1
_STEPSIZE = 0.010714
_STEPMODE = S
_START = 39.9
_THETA = 18.01
_2THETA = 39.9
_KHI = -0.006
_PHI = 0.000039
_X = 0.784004
_Y = 1.103027
_Z = 0.710508
_DETECTORSLIT = out
_AUX1 = 0
_AUX2 = -2.34
_TIMESTARTED = 6.318011
_KV = 40
_MA = 40
_RANGE_WL = 1.5406
_3DPLANE = 0
_V4_PSD2THETA = 9999
_V4_PSDCHANNEL1 = 0
_V4_PSDAPERTURE = 2.057142
_V4_PSDTYPE = 5
_V4_PSDFIXED = 1
_V4_TEMPCONTROL = 0
_V4_TEMPSTAGE = 0
_V4_TEMPSENSOR = 0
_V4_TEMPERATURE = 2221.15
_V4_TEMPRATE = 0
_V4_TEMPDELAY = 0
_V4_TEMPRAMPFLAG = 0
_V4_COUNTERS_MASK = 1
_V4_DRIVES_MASK = 0
_V4_ENCODERS_MASK = 0
_2THETACOUNTS = 1
; 2THETA	Cnt2_D1
39.9	0.000000
39.9107	1.000000
39.9214	2.000000
39.9321	3.000000
39.9429	3.000000
39.9536	1.000000
39.9643	0.000000
39.975	0.000000
39.9857	1.000000
39.9964	0.000000
40.0071	0.000000
40.0179	0.000000
40.0286	0.000000
40.0393	2.000000
40.05	2.000000
40.0607	0.000000
40.0714	0.000000
40.0821	1.000000
40.0929	0.000000
40.1036	0.000000
40.1143	0.000000
40.125	0.000000
40.1357	0.000000
40.1464	2.000000
40.1571	1.000000
40.1679	0.000000
40.1786	1.000000
40.1893	0.000000
40.2	3.000000
40.2107	1.000000
40.2214	2.000000
40.2321	1.000000
40.2429	0.000000
40.2536	2.000000
40.2643	0.000000
40.275	4.000000
40.2857	1.000000
40.2964	4.000000
40.3071	1.000000
40.3179	3.000000
40.3286	0.000000
40.3393	3.000000
40.35	2.000000
40.3607	3.000000
40.3714	1.000000
40.3821	2.000000
40.3929	1.000000
40.4036	1.000000
40.4143	2.000000
40.425	1.000000
40.4357	1.000000
40.4464	1.000000
40.4571	1.000000
40.4679	1.000000
40.4786	1.000000
40.4893	4.000000
40.5	0.000000
40.5107	0.000000
40.5214	0.000000
40.5321	2.000000
40.5429	1.000000
40.5536	0.000000
40.5643	1.000000
40.575	2.000000
40.5857	2.000000
40.5964	1.000000
40.6071	1.000000
40.6179	1.000000
40.6286	1.000000
40.6393	0.000000
40.65	2.000000
40.6607	2.000000
40.6714	0.000000
40.6821	2.000000
40.6929	0.000000
40.7036	0.000000
40.7143	0.000000
40.725	0.000000
40.7357	0.000000
40.7464	3.000000
40.7571	0.000000
40.7679	1.000000
40.7786	1.000000
40.7893	0.000000
40.8	1.000000
40.8107	1.000000
40.8214	1.000000
40.8321	0.000000
40.8429	2.000000
40.8536	1.000000
40.8643	0.000000
40.875	1.000000
40.8857	3.000000
40.8964	1.000000
40.9071	0.000000
40.9179	0.000000
40.9286	3.000000
40.9393	1.000000
40.95	0.000000
40.9607	1.000000
40.9714	1.000000
40.9821	0.000000
40.9929	0.000000
41.0036	2.000000
41.0143	1.000000
41.025	1.000000
41.0357	0.000000
41.0464	0.000000
41.0571	0.000000
41.0679	0.000000
41.0786	1.000000
41.0893	1.000000
41.1	1.000000
41.1107	0.000000
41.1214	0.000000
41.1321	1.000000
41.1429	1.000000
41.1536	1.000000
41.1643	0.000000
41.175	1.000000
41.1857	2.000000
41.1964	0.000000
41.2071	1.000000
41.2179	0.000000
41.2286	1.000000
41.2393	2.000000
41.25	1.000000
[...]
_AUX1 = 0
_AUX2 = -2.34
_TIMESTARTED = 3108.088
_KV = 40
_MA = 40
_RANGE_WL = 1.5406
_3DPLANE = 0
_V4_PSD2THETA = 9999
_V4_PSDCHANNEL1 = 0
_V4_PSDAPERTURE = 2.057142
_V4_PSDTYPE = 5
_V4_PSDFIXED = 1
_V4_TEMPCONTROL = 0
_V4_TEMPSTAGE = 0
_V4_TEMPSENSOR = 0
_V4_TEMPERATURE = 2221.15
_V4_TEMPRATE = 0
_V4_TEMPDELAY = 0
_V4_TEMPRAMPFLAG = 0
_V4_COUNTERS_MASK = 1
_V4_DRIVES_MASK = 0
_V4_ENCODERS_MASK = 0
_2THETACOUNTS = 1
; 2THETA	Cnt2_D1
39.9	0.000000
39.9107	0.000000
39.9214	0.000000
39.9321	1.000000
39.9429	0.000000
39.9536	1.000000
39.9643	2.000000
39.975	2.000000
39.9857	2.000000
39.9964	1.000000
40.0071	1.000000
40.0179	0.000000
40.0286	0.000000
40.0393	0.000000
40.05	0.000000
40.0607	0.000000
40.0714	0.000000
40.0821	1.000000
40.0929	0.000000
40.1036	0.000000
40.1143	1.000000
40.125	0.000000
40.1357	2.000000
40.1464	0.000000
40.1571	1.000000
40.1679	1.000000
40.1786	1.000000
40.1893	1.000000
40.2	0.000000
40.2107	1.000000
40.2214	1.000000
40.2321	1.000000
40.2429	0.000000
40.2536	1.000000
40.2643	1.000000
40.275	2.000000
40.2857	1.000000
40.2964	0.000000
40.3071	0.000000
40.3179	0.000000
40.3286	0.000000
40.3393	2.000000
40.35	1.000000
40.3607	1.000000
40.3714	2.000000
40.3821	1.000000
40.3929	0.000000
40.4036	1.000000
40.4143	1.000000
40.425	0.000000
40.4357	2.000000
40.4464	1.000000
40.4571	0.000000
40.4679	0.000000
40.4786	2.000000
40.4893	2.000000
40.5	1.000000
40.5107	1.000000
40.5214	1.000000
40.5321	1.000000
40.5429	2.000000
40.5536	1.000000
40.5643	1.000000
40.575	1.000000
40.5857	0.000000
40.5964	2.000000
40.6071	1.000000
40.6179	1.000000
40.6286	2.000000
40.6393	5.000000
40.65	0.000000
40.6607	0.000000
40.6714	0.000000
40.6821	0.000000
40.6929	1.000000
40.7036	2.000000
40.7143	1.000000
40.725	0.000000
40.7357	2.000000
40.7464	2.000000
40.7571	0.000000
40.7679	0.000000
40.7786	1.000000
40.7893	2.000000
40.8	0.000000
40.8107	1.000000
40.8214	2.000000
40.8321	2.000000
40.8429	0.000000
40.8536	1.000000
40.8643	1.000000
40.875	1.000000
40.8857	0.000000
40.8964	1.000000
40.9071	1.000000
40.9179	0.000000
40.9286	0.000000
40.9393	0.000000
40.95	1.000000
40.9607	2.000000
40.9714	1.000000
40.9821	1.000000
40.9929	0.000000
41.0036	2.000000
41.0143	1.000000
41.025	0.000000
41.0357	2.000000
41.0464	1.000000
41.0571	2.000000
41.0679	1.000000
41.0786	3.000000
41.0893	1.000000
41.1	0.000000
41.1107	0.000000
41.1214	2.000000
41.1321	0.000000
41.1429	1.000000
41.1536	1.000000
41.1643	0.000000
41.175	0.000000
41.1857	0.000000
41.1964	0.000000
41.2071	0.000000
41.2179	0.000000
41.2286	1.000000
41.2393	2.000000
41.25	3.000000
41.2607	2.000000
41.2714	1.000000
41.2821	3.000000
41.2929	1.000000
41.3036	1.000000
41.3143	1.000000
41.325	0.000000
41.3357	1.000000
41.3464	0.000000
41.3571	0.000000
41.3679	0.000000
41.3786	0.000000
41.3893	2.000000
41.4	0.000000
41.4107	0.000000
41.4214	0.000000
41.4321	0.000000
41.4429	1.000000
41.4536	1.000000
41.4643	3.000000
41.475	2.000000
41.4857	1.000000
41.4964	0.000000
41.5071	0.000000
41.5179	2.000000
41.5286	0.000000
41.5393	1.000000
41.55	0.000000
41.5607	0.000000
41.5714	2.000000
41.5821	0.000000
41.5929	0.000000
41.6036	0.000000
41.6143	0.000000
41.625	1.000000
41.6357	1.000000
41.6464	2.000000
41.6571	3.000000
41.6679	2.000000
41.6786	3.000000
41.6893	2.000000
41.7	1.000000
41.7107	2.000000
41.7214	1.000000
41.7321	2.000000
41.7429	0.000000
41.7536	1.000000
41.7643	1.000000
41.775	0.000000
41.7857	0.000000
41.7964	0.000000
41.8071	1.000000
41.8179	2.000000
41.8286	0.000000
41.8393	0.000000
41.85	3.000000
41.8607	1.000000
41.8714	0.000000
41.8821	0.000000
41.8929	0.000000
41.9036	0.000000
41.9143	0.000000
41.925	0.000000
41.9357	0.000000
41.9464	0.000000

File: Sin2Psi.uxd
;content of D:\DATA\Mayet\Lasseur\Test Mo-PF-38-43.raw - (Diffrac Plus V4 file)
_FILEVERSION = 3
_SAMPLE
_+SAMPLE
_USER = Lab Manager
_GONIOMETER_CODE = 20
_STAGE_CODE = 4
; Goniometer : D8 theta/2theta, stage : Open eulerian craddle
_SAMPLE_CHANGER_CODE = 0
_ATTACHMENTS_CODE = 0
_GONIOMETER_RADIUS = 390
_FIXED_DETSLIT = 0
_MONOCHROMATOR = 0
; Incident beam monochromator : None
_BETA_FILTER = N
_ANALYZER_CODE = 0
; Received beam analyzer : None
_DATEMEASURED = 22-Apr-2016 12:35:27
_RUNTIME = 79.4536
_WL_UNIT = A
_WL1 = 1.5406
_WL2 = 1.54439
_WL3 = 1.39222
_WLRATIO = 0.5
_ANODE = Cu
_V4_INF_USER = Lab Manager
_V4_INF_CREATOR = V5Converter
_V4_INF_CREATOR_VERSION = 3.3.50.0

; Data for range 1
_DRIVE = COUPLED
_STEPTIME = 220.8
_STEPSIZE = 0.02
_STEPMODE = C
_START = 38
_THETA = 19
_2THETA = 38
_KHI = 0
_PHI = 0
_X = 1.99998
_Y = 0.00002
_Z = 0.265
_DETECTORSLIT = out
_AUX1 = 0
_AUX2 = 0
_TIMESTARTED = 0
_KV = 40
_MA = 40
_RANGE_WL = 1.5406
_3DPLANE = 0
_V4_PSD2THETA = 9999
_V4_PSDCHANNEL1 = 0
_V4_PSDAPERTURE = 2.057142
_V4_PSDTYPE = 5
_V4_PSDFIXED = 0
_V4_TEMPCONTROL = 0
_V4_TEMPSTAGE = 0
_V4_TEMPSENSOR = 0
_V4_TEMPERATURE = 303.15
_V4_TEMPRATE = 0
_V4_TEMPDELAY = 0
_V4_TEMPRAMPFLAG = 0
_V4_COUNTERS_MASK = 1
_V4_DRIVES_MASK = 0
_V4_ENCODERS_MASK = 0
_2THETACOUNTS = 1
; 2THETA	Cnt2_D1
38	306
38.02	325
38.04	321
38.06	302
38.08	288
38.1	317
38.12	304
38.14	323
38.16	322
38.18	278
38.2	305
38.22	320
38.24	300
38.26	292
38.28	301
38.3	281
38.32	284
38.34	329
38.36	304
38.38	333
38.4	340
38.42	336
38.44	305
38.46	317
38.48	333
38.5	286
38.52	341
38.54	310
38.56	334
38.58	303
38.6	295
38.62	345
38.64	305
38.66	334
38.68	290
38.7	320
38.72	316
38.74	320
38.76	289
38.78	315
38.8	329
38.82	345
38.84	343
38.86	335
38.88	323
38.9	350
38.92	317
38.94	322
38.96	334
38.98	324
39	310
39.02	343
39.04	324
39.06	364
39.08	347
39.1	386
39.12	386
39.14	333
39.16	346
39.18	305
39.2	377
39.22	403
39.24	402
39.26	414
39.28	363
39.3	383
39.32	420
39.34	385
39.36	351
39.38	353
39.4	388
39.42	392
39.44	388
39.46	382
39.48	366
39.5	393
39.52	394
39.54	388
39.56	410
39.58	435
39.6	410
39.62	387
39.64	412
39.66	389
39.68	413
39.7	435
39.72	433
39.74	415
39.76	469
39.78	461
39.8	436
39.82	430
39.84	421
39.86	447
39.88	484
39.9	457
39.92	491
39.94	451
39.96	498
39.98	496
40	525
40.02	538
40.04	476
40.06	518
40.08	553
40.1	553
40.12	618
40.14	638
40.16	660
40.18	660
40.2	773
40.22	871
40.24	915
40.26	922
40.28	1108
40.3	1276
40.32	1537
40.34	1978
40.36	2351
40.38	3173
40.4	4112
40.42	5528
40.44	7305
40.46	8814
40.48	10044
40.5	11420
40.52	12017
40.54	12127
40.56	11557
40.58	10677
40.6	9526
40.62	8258
40.64	7041
40.66	5906
40.68	4823
40.7	3723
40.72	2813
40.74	2227
40.76	1729
40.78	1362
40.8	1113
40.82	1078
40.84	955
40.86	820
40.88	806
40.9	712
40.92	691
40.94	696
40.96	633
40.98	581
41	578
41.02	599
41.04	556
41.06	609
41.08	546
41.1	534
41.12	484
41.14	508
41.16	596
41.18	523
41.2	496
41.22	525
41.24	487
41.26	501
41.28	508
41.3	501
41.32	494
41.34	504
41.36	539
41.38	521
41.4	549
41.42	495
41.44	525
41.46	491
41.48	501
41.5	448
41.52	466
41.54	526
41.56	508
41.58	473
41.6	458
41.62	434
41.64	530
41.66	521
41.68	498
41.7	535
41.72	530
41.74	514
41.76	537
41.78	487
41.8	492
41.82	566
41.84	539
41.86	523
41.88	463
41.9	513
41.92	512
41.94	536
41.96	498
41.98	525
42	518
42.02	482
42.04	482
42.06	509
42.08	531
42.1	526
42.12	499
42.14	520
42.16	548
42.18	551
42.2	512
42.22	562
42.24	509
42.26	540
42.28	559
42.3	517
42.32	507
42.34	544
42.36	524
42.38	522
42.4	577
42.42	518
42.44	493
42.46	526
42.48	542
42.5	599
42.52	522
42.54	524
42.56	560
42.58	545
42.6	566
42.62	549
42.64	518
42.66	545
42.68	526
42.7	601
42.72	538
42.74	531
42.76	542
42.78	502
42.8	505
42.82	527
42.84	581
42.86	574
42.88	538
42.9	549
42.92	543
42.94	552
42.96	553
42.98	540
43	546

; Data for range 2
_DRIVE = COUPLED
_STEPTIME = 220.8
_STEPSIZE = 0.02
_STEPMODE = C
_START = 38
_THETA = 19
_2THETA = 38
_KHI = 10
_PHI = 0
_X = 1.99998
_Y = 0.00002
_Z = 0.265
_DETECTORSLIT = out
_AUX1 = 0
_AUX2 = 0
_TIMESTARTED = 451.0436
_KV = 40
_MA = 40
_RANGE_WL = 1.5406
_3DPLANE = 0
_V4_PSD2THETA = 9999
_V4_PSDCHANNEL1 = 0
_V4_PSDAPERTURE = 2.057142
_V4_PSDTYPE = 5
_V4_PSDFIXED = 0
_V4_TEMPCONTROL = 0
_V4_TEMPSTAGE = 0
_V4_TEMPSENSOR = 0
_V4_TEMPERATURE = 303.15
_V4_TEMPRATE = 0
_V4_TEMPDELAY = 0
_V4_TEMPRAMPFLAG = 0
_V4_COUNTERS_MASK = 1
_V4_DRIVES_MASK = 0
_V4_ENCODERS_MASK = 0
_2THETACOUNTS = 1
; 2THETA	Cnt2_D1
38	314
38.02	313
38.04	284
38.06	309
38.08	294
38.1	310
38.12	326
38.14	300
38.16	309
38.18	291
38.2	309
38.22	308
38.24	313
38.26	321
38.28	286
38.3	323
38.32	325
38.34	297
38.36	315
38.38	312
38.4	294
38.42	299
38.44	307
38.46	299
38.48	327
38.5	298
38.52	269
38.54	333
38.56	313
38.58	322
38.6	329
38.62	326
38.64	288
38.66	320
38.68	298
38.7	317
38.72	312
38.74	313
38.76	288
38.78	301
38.8	326
38.82	302
38.84	302
38.86	308
38.88	297
38.9	346
38.92	327
38.94	307
38.96	317
38.98	365
39	369
39.02	328
39.04	334
39.06	376
39.08	378
39.1	379
39.12	374
39.14	328
39.16	371
39.18	356
39.2	352
39.22	362
39.24	367
39.26	373
39.28	372
39.3	418
39.32	406
39.34	424
39.36	397
39.38	364
39.4	414
39.42	391
39.44	369
39.46	416
39.48	385
39.5	404
39.52	423
39.54	373
39.56	403
39.58	399
39.6	403
39.62	419
39.64	357
39.66	417
39.68	428
39.7	427
39.72	462
39.74	502
39.76	418
39.78	441
39.8	435
39.82	409
39.84	486
39.86	475
39.88	457
39.9	480
39.92	490
39.94	457
39.96	515
39.98	501
40	498
40.02	568
40.04	551
40.06	667
40.08	652
40.1	641
40.12	690
40.14	704
40.16	788
40.18	834
40.2	842
40.22	915
40.24	949
40.26	1076
40.28	1305
40.3	1416
40.32	1641
40.34	2022
40.36	2529
40.38	3199
40.4	4483
40.42	5809
40.44	7499
40.46	8889
40.48	10009
40.5	11145
40.52	11355
40.54	11513
40.56	11139
40.58	10113
40.6	9270
40.62	8085
40.64	7082
40.66	5744
40.68	4805
40.7	3797
40.72	3014
40.74	2366
40.76	1889
40.78	1545
40.8	1336
40.82	1168
40.84	1025
40.86	942
40.88	826
40.9	791
40.92	766
40.94	677
40.96	630
40.98	621
41	644
41.02	557
41.04	608
41.06	586
41.08	570
41.1	572
41.12	528
41.14	521
41.16	522
41.18	517
41.2	489
41.22	524
41.24	547
41.26	517
41.28	517
41.3	484
41.32	528
41.34	533
41.36	523
41.38	491
41.4	491
41.42	493
41.44	473
41.46	481
41.48	516
41.5	523
41.52	513
41.54	464
41.56	466
41.58	500
41.6	511
41.62	524
41.64	501
41.66	508
41.68	480
41.7	510
41.72	535
41.74	518
41.76	501
41.78	482
41.8	518
41.82	517
41.84	534
41.86	463
41.88	518
41.9	485
41.92	459
41.94	473
41.96	513
41.98	500
42	472
42.02	493
42.04	522
42.06	495
42.08	479
42.1	532
42.12	530
42.14	545
42.16	535
42.18	522
42.2	510
42.22	565
42.24	542
42.26	497
42.28	505
42.3	514
42.32	511
42.34	495
42.36	516
42.38	487
42.4	555
42.42	528
42.44	524
42.46	496
42.48	559
42.5	551
42.52	525
42.54	557
42.56	559
42.58	506
42.6	524
42.62	541
42.64	549
42.66	493
42.68	512
42.7	527
42.72	549
42.74	544
42.76	561
42.78	560
42.8	536
42.82	543
42.84	523
42.86	523
42.88	558
42.9	543
42.92	563
42.94	536
42.96	566
42.98	504
43	549

; Data for range 3
_DRIVE = COUPLED
_STEPTIME = 220.8
_STEPSIZE = 0.02
_STEPMODE = C
_START = 38
_THETA = 19
_2THETA = 38
_KHI = 20
_PHI = 0
_X = 1.99998
_Y = 0.00002
_Z = 0.265
_DETECTORSLIT = out
_AUX1 = 0
_AUX2 = 0
_TIMESTARTED = 891.1204
_KV = 40
_MA = 40
_RANGE_WL = 1.5406
_3DPLANE = 0
_V4_PSD2THETA = 9999
_V4_PSDCHANNEL1 = 0
_V4_PSDAPERTURE = 2.057142
_V4_PSDTYPE = 5
_V4_PSDFIXED = 0
_V4_TEMPCONTROL = 0
_V4_TEMPSTAGE = 0
[...]
41.8	443
41.82	484
41.84	444
41.86	456
41.88	436
41.9	420
41.92	432
41.94	442
41.96	421
41.98	433
42	426
42.02	433
42.04	401
42.06	431
42.08	412
42.1	468
42.12	479
42.14	440
42.16	443
42.18	388
42.2	452
42.22	484
42.24	494
42.26	471
42.28	449
42.3	428
42.32	455
42.34	396
42.36	461
42.38	453
42.4	446
42.42	430
42.44	425
42.46	402
42.48	431
42.5	441
42.52	439
42.54	486
42.56	449
42.58	448
42.6	475
42.62	532
42.64	469
42.66	455
42.68	520
42.7	465
42.72	480
42.74	478
42.76	489
42.78	483
42.8	449
42.82	402
42.84	481
42.86	494
42.88	484
42.9	525
42.92	482
42.94	461
42.96	460
42.98	458
43	492

; Data for range 18
_DRIVE = COUPLED
_STEPTIME = 220.8
_STEPSIZE = 0.02
_STEPMODE = C
_START = 38
_THETA = 19
_2THETA = 38
_KHI = 80
_PHI = 90
_X = 1.99998
_Y = 0.00002
_Z = 0.265
_DETECTORSLIT = out
_AUX1 = 0
_AUX2 = 0
_TIMESTARTED = 7505.221
_KV = 40
_MA = 40
_RANGE_WL = 1.5406
_3DPLANE = 0
_V4_PSD2THETA = 9999
_V4_PSDCHANNEL1 = 0
_V4_PSDAPERTURE = 2.057142
_V4_PSDTYPE = 5
_V4_PSDFIXED = 0
_V4_TEMPCONTROL = 0
_V4_TEMPSTAGE = 0
_V4_TEMPSENSOR = 0
_V4_TEMPERATURE = 303.15
_V4_TEMPRATE = 0
_V4_TEMPDELAY = 0
_V4_TEMPRAMPFLAG = 0
_V4_COUNTERS_MASK = 1
_V4_DRIVES_MASK = 0
_V4_ENCODERS_MASK = 0
_2THETACOUNTS = 1
; 2THETA	Cnt2_D1
38	111
38.02	102
38.04	104
38.06	102
38.08	108
38.1	109
38.12	84
38.14	92
38.16	94
38.18	87
38.2	93
38.22	90
38.24	130
38.26	116
38.28	108
38.3	97
38.32	89
38.34	87
38.36	98
38.38	104
38.4	100
38.42	105
38.44	111
38.46	95
38.48	96
38.5	99
38.52	103
38.54	126
38.56	105
38.58	107
38.6	78
38.62	102
38.64	104
38.66	115
38.68	106
38.7	112
38.72	86
38.74	95
38.76	128
38.78	103
38.8	108
38.82	138
38.84	125
38.86	128
38.88	112
38.9	107
38.92	105
38.94	125
38.96	129
38.98	102
39	123
39.02	131
39.04	118
39.06	144
39.08	140
39.1	111
39.12	142
39.14	133
39.16	126
39.18	129
39.2	118
39.22	112
39.24	145
39.26	142
39.28	131
39.3	126
39.32	127
39.34	146
39.36	143
39.38	128
39.4	139
39.42	141
39.44	180
39.46	151
39.48	161
39.5	145
39.52	127
39.54	169
39.56	176
39.58	170
39.6	168
39.62	175
39.64	160
39.66	180
39.68	179
39.7	183
39.72	187
39.74	195
39.76	194
39.78	226
39.8	230
39.82	224
39.84	220
39.86	241
39.88	271
39.9	304
39.92	296
39.94	307
39.96	338
39.98	317
40	310
40.02	373
40.04	379
40.06	336
40.08	381
40.1	436
40.12	426
40.14	417
40.16	459
40.18	467
40.2	491
40.22	493
40.24	510
40.26	518
40.28	508
40.3	548
40.32	587
40.34	597
40.36	582
40.38	621
40.4	668
40.42	599
40.44	578
40.46	642
40.48	659
40.5	651
40.52	665
40.54	707
40.56	700
40.58	681
40.6	703
40.62	674
40.64	710
40.66	735
40.68	714
40.7	721
40.72	757
40.74	741
40.76	758
40.78	778
40.8	767
40.82	813
40.84	752
40.86	763
40.88	722
40.9	748
40.92	706
40.94	735
40.96	771
40.98	687
41	693
41.02	737
41.04	678
41.06	673
41.08	702
41.1	648
41.12	623
41.14	622
41.16	647
41.18	553
41.2	614
41.22	485
41.24	513
41.26	516
41.28	491
41.3	441
41.32	460
41.34	405
41.36	425
41.38	410
41.4	387
41.42	353
41.44	408
41.46	351
41.48	357
41.5	339
41.52	309
41.54	316
41.56	302
41.58	303
41.6	317
41.62	336
41.64	306
41.66	302
41.68	316
41.7	302
41.72	317
41.74	337
41.76	265
41.78	297
41.8	308
41.82	310
41.84	302
41.86	296
41.88	280
41.9	265
41.92	300
41.94	279
41.96	289
41.98	344
42	332
42.02	310
42.04	290
42.06	318
42.08	311
42.1	331
42.12	337
42.14	320
42.16	314
42.18	332
42.2	345
42.22	326
42.24	309
42.26	315
42.28	311
42.3	305
42.32	328
42.34	324
42.36	294
42.38	351
42.4	357
42.42	355
42.44	371
42.46	299
42.48	369
42.5	322
42.52	378
42.54	347
42.56	360
42.58	346
42.6	357
42.62	376
42.64	378
42.66	394
42.68	349
42.7	346
42.72	373
42.74	381
42.76	347
42.78	351
42.8	381
42.82	350
42.84	352
42.86	331
42.88	358
42.9	360
42.92	389
42.94	406
42.96	364
42.98	383
43	392